File: xrd/vals.xy
2theta back_cor
35.0 203.668
35.02 229.25
35.04 209.748
35.06 235.212
35.08 229.262
35.1 237.819
35.12 260.462
35.14 314.7
35.16 328.281
35.18 304.26
35.2 310.569
35.22 294.324
35.24 306.045
35.26 305.586
35.28 321.335
35.3 315.359
35.32 303.101
35.34 283.739
35.36 287.885
35.38 317.628
35.4 320.979
35.42 334.545
35.44 284.885
35.46 276.357
35.48 276.693
35.5 216.949
35.52 227.05
35.54 212.336
35.56 211.067
35.58 188.839
35.6 214.553
35.62 198.366
35.64 169.267
35.66 126.483
35.68 108.583
35.7 134.24
35.72 118.25
35.74 96.2553
35.76 65.496
35.78 88.4626
35.8 95.1711
35.82 95.0297
35.84 65.7773
35.86 81.1149
35.88 76.2724
35.9 73.095
35.92 61.3325
35.94 90.885
35.96 90.6266
35.98 85.8621
36.0 67.6396
36.02 50.2501
36.04 80.7565
36.06 64.945
36.08 63.4075
36.1 48.2349
36.12 62.7474
36.14 62.5568
36.16 43.4212
36.18 54.1606
36.2 60.066
36.22 73.3674
36.24 56.9468
36.26 33.3102
36.28 63.5265
36.3 71.4209
36.32 84.1633
36.34 70.4636
36.36 94.7419
36.38 101.562
36.4 85.6655
36.42 64.5828
36.44 45.7511
36.46 72.2094
36.48 70.3017
36.5 50.0719
36.52 72.1472
36.54 76.5764
36.56 49.2087
36.58 66.5299
36.6 55.3281
36.62 41.3503
36.64 52.1645
36.66 44.1407
36.68 70.8969
36.7 92.439
36.72 102.173
36.74 66.4483
36.76 72.2205
36.78 56.8896
36.8 67.4607
36.82 59.8278
36.84 73.1799
36.86 68.565
36.88 63.1361
36.9 69.6942
36.92 90.9852
36.94 92.1333
36.96 86.1053
36.98 94.5124
37.0 66.9004
37.02 69.3954
37.04 101.163
37.06 77.3204
37.08 78.3944
37.1 58.6874
37.12 38.6323
37.14 55.7583
37.16 64.9302
37.18 64.0942
37.2 58.9151
37.22 53.167
37.24 24.8389
37.26 35.1158
37.28 39.5907
37.3 50.3286
37.32 34.4805
37.34 37.5113
37.36 47.7712
37.38 49.477
37.4 33.2039
37.42 6.88069
37.44 13.5435
37.46 42.2053
37.48 29.3021
37.5 50.1559
37.52 25.8407
37.54 6.97044
37.56 19.7692
37.58 37.2879
37.6 18.8357
37.62 33.7484
37.64 42.7261
37.66 36.9828
37.68 24.6505
37.7 26.7962
37.72 29.1859
37.74 27.9876
37.76 55.5833
37.78 50.2089
37.8 34.6205
37.82 5.73518
37.84 -15.7642
37.86 -4.85058
37.88 10.792
37.9 6.42862
37.92 29.5042
37.94 10.0328
37.96 5.01236
37.98 17.1159
38.0 18.1385
38.02 40.26
38.04 27.8315
38.06 30.5691
38.08 11.2866
38.1 41.9381
38.12 54.6796
38.14 34.682
38.16 15.2915
38.18 24.031
38.2 33.0854
38.22 40.4529
38.24 33.7243
38.26 37.5967
38.28 53.6111
38.3 41.9346
38.32 35.4559
38.34 39.3553
38.36 48.9677
38.38 51.2791
38.4 50.9994
38.42 40.5078
38.44 22.3581
38.46 30.0385
38.48 53.2668
38.5 18.1491
38.52 24.4244
38.54 43.6627
38.56 48.967
38.58 51.0352
38.6 29.8885
38.62 34.6158
38.64 15.97
38.66 13.7522
38.68 2.88346
38.7 26.4727
38.72 27.2169
38.74 35.6991
38.76 12.1023
38.78 23.9284
38.8 25.9316
38.82 13.2028
38.84 12.2119
38.86 -8.44993
38.88 7.6142
38.9 21.6183
38.92 16.4994
38.94 17.6615
38.96 39.5316
38.98 38.7887
39.0 14.7488
39.02 18.8478
39.04 36.6809
39.06 37.5199
39.08 47.223
39.1 56.676
39.12 55.236
39.14 30.845
39.16 63.261
39.18 63.732
39.2 54.896
39.22 56.046
39.24 74.6469
39.26 97.0089
39.28 89.9988
39.3 90.9387
39.32 98.8147
39.34 99.9596
39.36 86.0635
39.38 105.081
39.4 121.917
39.42 102.39
39.44 108.006
39.46 118.879
39.48 114.116
39.5 102.526
39.52 111.036
39.54 128.442
39.56 145.895
39.58 112.274
39.6 95.1486
39.62 98.2294
39.64 91.0331
39.66 101.241
39.68 90.7036
39.7 101.607
39.72 100.103
39.74 83.0158
39.76 80.3475
39.78 49.9472
39.8 39.5209
39.82 52.8596
39.84 51.2043
39.86 45.889
39.88 40.2016
39.9 46.3663
39.92 49.3419
39.94 27.5195
39.96 42.5911
39.98 32.5458
40.0 37.3693
40.02 9.84894
40.04 21.1875
40.06 29.2641
40.08 30.6126
40.1 25.9882
40.12 34.8087
40.14 35.1943
40.16 23.2438
40.18 20.4813
40.2 26.1028
40.22 22.4773
40.24 44.0678
40.26 45.5893
40.28 16.9137
40.3 22.8652
40.32 30.7106
40.34 23.4431
40.36 26.9395
40.38 32.4559
40.4 29.0043
40.42 26.0417
40.44 45.7861
40.46 56.3905
40.48 80.3109
40.5 89.3742
40.52 81.9856
40.54 87.2389
40.56 126.529
40.58 142.494
40.6 158.395
40.62 210.735
40.64 240.855
40.66 274.489
40.68 287.584
40.7 336.485
40.72 405.942
40.74 434.543
40.76 456.18
40.78 529.298
40.8 558.139
40.82 636.03
40.84 653.744
40.86 714.632
40.88 719.912
40.9 763.754
40.92 797.107
40.94 809.892
40.96 838.905
40.98 861.479
41.0 863.722
41.02 876.444
41.04 882.956
41.06 841.621
41.08 850.961
41.1 797.678
41.12 761.764
41.14 716.999
41.16 673.747
41.18 648.41
41.2 609.799
41.22 513.069
41.24 475.001
41.26 422.313
41.28 397.277
41.3 378.614
41.32 303.832
41.34 265.09
41.36 235.894
41.38 187.025
41.4 174.084
41.42 134.634
41.44 105.138
41.46 94.5414
41.48 80.2453
41.5 76.4112
41.52 44.169
41.54 21.2009
41.56 13.9108
41.58 3.62761
41.6 1.57645
41.62 -22.4557
41.64 -19.7279
41.66 -7.54109
41.68 -15.8713
41.7 -2.8855
41.72 -19.5347
41.74 -11.1099
41.76 -13.9292
41.78 -10.5174
41.8 -3.03269
41.82 -1.84795
41.84 -15.1332
41.86 -5.08451
41.88 8.86019
41.9 8.05489
41.92 5.99957
41.94 14.3673
41.96 31.8399
41.98 36.6066
42.0 47.3192
42.02 76.5449
42.04 59.6695
42.06 64.8731
42.08 76.2747
42.1 75.4553
42.12 72.7629
42.14 93.1565
42.16 84.0671
42.18 118.626
42.2 123.871
42.22 107.508
42.24 102.252
42.26 110.334
42.28 118.594
42.3 100.371
42.32 105.461
42.34 106.036
42.36 87.1793
42.38 83.3427
42.4 73.8662
42.42 80.8296
42.44 67.4281
42.46 48.1565
42.48 65.0999
42.5 58.2423
42.52 48.9547
42.54 48.2151
42.56 48.3445
42.58 41.7919
42.6 18.7313
42.62 25.6976
42.64 31.753
42.66 33.6303
42.68 5.67662
42.7 32.4189
42.72 29.4962
42.74 31.4855
42.76 23.0698
42.78 37.9081
42.8 28.1494
42.82 30.0586
42.84 15.6969
42.86 42.5161
42.88 29.3453
42.9 62.1306
42.92 28.0108
42.94 13.453
42.96 33.3662
42.98 22.0444
43.0 24.3245
43.02 34.7347
43.04 35.7489
43.06 39.965
43.08 32.9501
43.1 29.4723
43.12 44.7694
43.14 47.4715
43.16 70.1326
43.18 63.0857
43.2 61.5097
43.22 60.3178
43.24 54.7359
43.26 51.8949
43.28 84.532
43.3 77.443
43.32 70.399
43.34 69.204
43.36 88.697
43.38 96.852
43.4 109.739
43.42 115.921
43.44 141.861
43.46 179.229
43.48 171.502
43.5 216.572
43.52 253.098
43.54 271.118
43.56 304.691
43.58 378.583
43.6 466.166
43.62 517.139
43.64 584.662
43.66 659.133
43.68 724.485
43.7 801.037
43.72 890.687
43.74 942.611
43.76 974.749
43.78 1085.12
43.8 1121.68
43.82 1161.08
43.84 1209.84
43.86 1264.48
43.88 1283.29
43.9 1315.84
43.92 1297.47
43.94 1302.43
43.96 1302.01
43.98 1287.48
44.0 1234.56
44.02 1171.99
44.04 1134.06
44.06 1066.45
44.08 1015.44
44.1 940.821
44.12 880.031
44.14 802.538
44.16 718.17
44.18 647.62
44.2 574.209
44.22 483.643
44.24 439.424
44.26 374.116
44.28 323.316
44.3 264.637
44.32 236.51
44.34 207.645
44.36 174.204
44.38 141.406
44.4 145.366
44.42 129.722
44.44 103.11
44.46 86.9755
44.48 69.008
44.5 68.6865
44.52 72.6219
44.54 69.3924
44.56 68.4778
44.58 62.4602
44.6 68.1506
44.62 44.246
44.64 49.2284
44.66 40.4988
44.68 61.0112
44.7 58.6145
44.72 70.6219
44.74 71.8182
44.76 63.9136
44.78 65.0859
44.8 61.0972
44.82 71.9825
44.84 64.6528
44.86 58.6931
44.88 53.7544
44.9 61.0247
44.92 42.4669
44.94 46.0642
44.96 60.9374
44.98 64.1537
45.0 39.7819
45.02 61.0051
45.04 60.0293
45.06 61.6375
45.08 50.9577
45.1 60.6789
45.12 72.445
45.14 71.3492
45.16 51.3553
45.18 61.1005
45.2 75.9366
45.22 76.2077
45.24 60.8548
45.26 67.3499
45.28 63.468
45.3 71.9001
45.32 77.7312
45.34 95.3542
45.36 86.5533
45.38 76.3563
45.4 94.1074
45.42 93.9834
45.44 80.6834
45.46 96.8054
45.48 104.684
45.5 107.878
45.52 106.239
45.54 106.052
45.56 128.28
45.58 137.871
45.6 148.01
45.62 158.863
45.64 165.289
45.66 182.429
45.68 191.7
45.7 179.08
45.72 179.285
45.74 194.408
45.76 227.9
45.78 216.555
45.8 203.542
45.82 232.405
45.84 229.708
45.86 243.6
45.88 241.156
45.9 248.9
45.92 256.358
45.94 258.211
45.96 270.278
45.98 254.92
46.0 250.465
46.02 249.006
46.04 251.681
46.06 258.936
46.08 262.084
46.1 291.328
46.12 320.979
46.14 333.711
46.16 365.645
46.18 389.863
46.2 418.073
46.22 473.268
46.24 536.181
46.26 607.342
46.28 675.051
46.3 802.116
46.32 900.056
46.34 1041.04
46.36 1204.91
46.38 1365.37
46.4 1541
46.42 1730.37
46.44 1937.08
46.46 2193.7
46.48 2433.9
46.5 2650.38
46.52 2903.58
46.54 3137.05
46.56 3368.09
46.58 3564.07
46.6 3713.93
46.62 3927.42
46.64 4095.32
46.66 4141.16
46.68 4258.68
46.7 4299.58
46.72 4215.01
46.74 4223.91
46.76 4168.18
46.78 4022.77
46.8 3853.81
46.82 3693.46
46.84 3510.76
46.86 3264.36
46.88 3083.11
46.9 2832.16
46.92 2598.6
46.94 2352.95
46.96 2110.13
46.98 1908.79
47.0 1721.88
47.02 1520.31
47.04 1333.83
47.06 1157.66
47.08 1002.25
47.1 885.509
47.12 771.632
47.14 656.527
47.16 586.141
47.18 497.522
47.2 420.859
47.22 343.434
47.24 349.026
47.26 315.157
47.28 275.838
47.3 264.935
47.32 255.421
47.34 229.41
47.36 231.834
47.38 212.985
47.4 182.012
47.42 172.654
47.44 160.193
47.46 175.569
47.48 165.673
47.5 155.809
47.52 149.177
47.54 159.406
47.56 142.453
47.58 121.848
47.6 140.181
47.62 127.794
47.64 126.137
47.66 122.643
47.68 115.598
47.7 117.307
47.72 102.218
47.74 87.1037
47.76 92.9216
47.78 95.4675
47.8 86.7904
47.82 91.8763
47.84 83.6491
47.86 76.798
47.88 83.2179
47.9 88.0817
47.92 87.7955
47.94 75.9734
47.96 77.8762
47.98 70.928
48.0 64.7308
48.02 86.7896
48.04 76.8824
48.06 59.7421
48.08 72.0569
48.1 64.1696
48.12 65.7504
48.14 71.2141
48.16 72.9818
48.18 75.2205
48.2 63.5832
48.22 77.4899
48.24 76.2956
48.26 60.9033
48.28 63.623
48.3 53.5726
48.32 61.1893
48.34 66.8879
48.36 60.1005
48.38 74.6701
48.4 73.3558
48.42 70.2643
48.44 67.7529
48.46 67.2525
48.48 69.6321
48.5 64.3566
48.52 66.7032
48.54 84.3357
48.56 67.0093
48.58 55.8088
48.6 46.2913
48.62 53.7758
48.64 51.4613
48.66 72.1338
48.68 56.1243
48.7 51.3637
48.72 59.0482
48.74 57.3736
48.76 49.3991
48.78 59.3605
48.8 49.3129
48.82 58.1853
48.84 65.0847
48.86 61.2911
48.88 52.9135
48.9 42.0369
48.92 47.6412
48.94 52.0036
48.96 61.5559
48.98 72.0163
49.0 67.5406
49.02 64.8729
49.04 56.5302
49.06 65.4225
49.08 60.9788
49.1 56.287
49.12 76.4393
49.14 70.2396
49.16 65.6088
49.18 63.7991
49.2 62.6373
49.22 59.8765
49.24 68.8277
49.26 57.6329
49.28 59.7301
49.3 60.0133
49.32 53.0865
49.34 59.6846
49.36 65.1218
49.38 54.6389
49.4 60.022
49.42 41.4242
49.44 66.8653
49.46 64.8314
49.48 47.4655
49.5 48.7456
49.52 62.6776
49.54 63.8157
49.56 66.1958
49.58 62.9738
49.6 59.8458
49.62 60.5929
49.64 51.4109
49.66 51.8119
49.68 62.8059
49.7 64.6369
49.72 64.7559
49.74 57.1678
49.76 73.6918
49.78 78.4188
49.8 72.2287
49.82 66.3406
49.84 69.7236
49.86 70.6675
49.88 69.1214
49.9 81.6633
49.92 82.9302
49.94 90.97
49.96 98.8549
49.98 86.9788
50.0 85.6416
50.02 93.4835
50.04 108.794
50.06 96.2381
50.08 94.2829
50.1 99.9217
50.12 104.152
50.14 92.5733
50.16 105.893
50.18 105.055
50.2 90.0626
50.22 102.711
50.24 101.054
50.26 84.3458
50.28 70.2175
50.3 69.0482
50.32 63.8339
50.34 64.4076
50.36 56.5523
50.38 69.3229
50.4 58.5126
50.42 61.6492
50.44 61.0769
50.46 56.5655
50.48 62.2541
50.5 71.0297
50.52 60.2643
50.54 56.2109
50.56 55.9775
50.58 54.7521
50.6 45.0546
50.62 57.2922
50.64 66.0477
50.66 62.8943
50.68 48.0918
50.7 53.4193
50.72 55.3198
50.74 57.1293
50.76 50.6458
50.78 62.7673
50.8 72.1847
50.82 55.3342
50.84 65.5767
50.86 58.2131
50.88 71.6585
50.9 71.4179
50.92 76.7614
50.94 63.3068
50.96 74.2781
50.98 67.3485
51.0 62.2039
51.02 77.5793
51.04 60.5196
51.06 51.163
51.08 58.5623
51.1 59.5686
51.12 54.8969
51.14 47.5382
51.16 52.5085
51.18 61.1008
51.2 46.8861
51.22 45.1624
51.24 46.3926
51.26 44.5449
51.28 46.0711
51.3 46.7524
51.32 57.4456
51.34 61.7998
51.36 50.696
51.38 60.2502
51.4 63.8334
51.42 69.4695
51.44 61.8507
51.46 56.9729
51.48 63.724
51.5 64.3211
51.52 73.5833
51.54 79.0354
51.56 88.6605
51.58 105.912
51.6 91.9257
51.62 97.3227
51.64 105.422
51.66 113.392
51.68 96.9169
51.7 112.303
51.72 108.397
51.74 118.065
51.76 118.758
51.78 95.666
51.8 118.887
51.82 114.451
51.84 110.567
51.86 104.935
51.88 99.3329
51.9 85.9598
51.92 87.5688
51.94 72.6457
51.96 75.3876
51.98 70.0885
52.0 67.2734
52.02 55.0303
52.04 65.2522
52.06 44.2001
52.08 40.7379
52.1 40.2458
52.12 40.5756
52.14 37.0725
52.16 40.3333
52.18 45.2061
52.2 44.7219
52.22 49.1597
52.24 44.9555
52.26 31.2792
52.28 34.97
52.3 31.3358
52.32 21.4275
52.34 36.7432
52.36 40.462
52.38 37.7097
52.4 53.0124
52.42 33.9961
52.44 26.5718
52.46 25.9225
52.48 34.9211
52.5 51.7218
52.52 38.5614
52.54 27.5931
52.56 34.6467
52.58 40.3313
52.6 32.509
52.62 42.0216
52.64 45.2152
52.66 31.6927
52.68 21.2483
52.7 33.7209
52.72 39.8184
52.74 52.083
52.76 46.7205
52.78 34.826
52.8 23.7086
52.82 13.3401
52.84 19.3646
52.86 19.5771
52.88 25.0115
52.9 10.82
52.92 16.4025
52.94 10.1179
52.96 14.8154
52.98 5.92579
53.0 27.3752
53.02 28.4336
53.04 26.241
53.06 23.1094
53.08 18.6408
53.1 23.2352
53.12 19.9646
53.14 27.4629
53.16 32.0053
53.18 28.0186
53.2 21.1289
53.22 22.5692
53.24 18.5415
53.26 20.6908
53.28 20.9821
53.3 18.4484
53.32 14.5217
53.34 21.3269
53.36 25.9502
53.38 13.4274
53.4 8.60468
53.42 14.9789
53.44 15.8001
53.46 6.16232
53.48 9.53451
53.5 2.6407
53.52 13.9439
53.54 17.797
53.56 17.1742
53.58 13.7583
53.6 18.1165
53.62 18.9466
53.64 27.9827
53.66 12.4278
53.68 11.7089
53.7 2.92603
53.72 5.96811
53.74 12.9662
53.76 6.91624
53.78 6.74829
53.8 8.44434
53.82 13.6834
53.84 20.1544
53.86 25.5674
53.88 13.3094
53.9 21.7204
53.92 18.4494
53.94 10.6724
53.96 17.4623
53.98 27.9723
54.0 17.7872
54.02 18.9692
54.04 21.8461
54.06 23.598
54.08 32.1379
54.1 27.8728
54.12 22.1487
54.14 32.9616
54.16 46.2455
54.18 53.0933
54.2 37.3082
54.22 34.564
54.24 40.8419
54.26 46.8767
54.28 53.7795
54.3 54.5653
54.32 50.8741
54.34 51.2169
54.36 37.6527
54.38 40.9994
54.4 47.3972
54.42 49.632
54.44 51.0907
54.46 51.7924
54.48 42.6901
54.5 31.1568
54.52 38.9125
54.54 48.5442
54.56 54.6839
54.58 40.7736
54.6 48.9803
54.62 39.1289
54.64 41.2216
54.66 46.1322
54.68 39.6918
54.7 38.4704
54.72 48.228
54.74 34.3296
54.76 45.1212
54.78 40.7888
54.8 47.6534
54.82 56.0359
54.84 63.6955
54.86 65.216
54.88 75.7335
54.9 69.2991
54.92 71.4296
54.94 69.2891
54.96 72.4946
54.98 81.61
55.0 88.3265
55.02 78.326
55.04 73.1634
55.06 87.2419
55.08 78.0353
55.1 88.5977
55.12 101.023
55.14 104.816
55.16 96.183
55.18 98.5313
55.2 99.1857
55.22 94.0061
55.24 100.244
55.26 94.1078
55.28 96.2101
55.3 96.6695
55.32 101.604
55.34 102.368
55.36 91.6624
55.38 80.1597
55.4 86.381
55.42 75.3603
55.44 76.7215
55.46 81.1008
55.48 79.089
55.5 87.6822
55.52 73.1975
55.54 64.6497
55.56 70.5109
55.58 73.8621
55.6 80.7123
55.62 69.8605
55.64 69.8486
55.66 59.6148
55.68 56.2399
55.7 55.5281
55.72 56.0952
55.74 55.0103
55.76 49.5844
55.78 43.8805
55.8 39.0826
55.82 55.8347
55.84 63.0238
55.86 55.5079
55.88 57.2999
55.9 67.665
55.92 65.102
55.94 74.62
55.96 78.759
55.98 69.448
56.0 68.648
56.02 79.267
56.04 92.26
56.06 87.717
56.08 91.7039
56.1 103.176
56.12 91.3888
56.14 100.552
56.16 99.2477
56.18 98.9886
56.2 100.774
56.22 107.954
56.24 87.9793
56.26 88.4951
56.28 83.623
56.3 83.7379
56.32 70.6437
56.34 79.5635
56.36 72.5924
56.38 63.6902
56.4 50.214
56.42 55.8258
56.44 51.2386
56.46 62.7604
56.48 50.1461
56.5 47.7419
56.52 38.4276
56.54 36.0374
56.56 39.1561
56.58 41.7878
56.6 40.7776
56.62 36.2473
56.64 32.6099
56.66 37.7436
56.68 20.3623
56.7 30.455
56.72 23.0386
56.74 39.2413
56.76 37.4149
56.78 28.8795
56.8 29.6902
56.82 25.8078
56.84 35.7314
56.86 41.697
56.88 41.6145
56.9 26.5351
56.92 39.1567
56.94 39.7942
56.96 60.5818
56.98 52.5443
57.0 55.4428
57.02 63.1923
57.04 46.1768
57.06 56.6503
57.08 66.3068
57.1 73.0253
57.12 77.7217
57.14 82.5582
57.16 86.0326
57.18 85.0841
57.2 84.6305
57.22 80.6669
57.24 75.6603
57.26 72.7907
57.28 65.0801
57.3 62.1085
57.32 63.4109
57.34 69.0432
57.36 59.9726
57.38 65.4019
57.4 72.2743
57.42 53.1976
57.44 43.7919
57.46 48.6502
57.48 46.8365
57.5 34.9658
57.52 31.8021
57.54 31.7863
57.56 29.9356
57.58 20.9708
57.6 21.4671
57.62 19.0433
57.64 25.7295
57.66 15.1297
57.68 10.4389
57.7 22.4481
57.72 18.3133
57.74 15.5955
57.76 15.2556
57.78 19.2458
57.8 19.3669
57.82 5.66106
57.84 5.99518
57.86 11.5203
57.88 19.5004
57.9 16.9205
57.92 14.2526
57.94 10.3547
57.96 7.84472
57.98 14.9168
58.0 18.4458
58.02 17.0929
58.04 10.6779
58.06 16.4119
58.08 17.0709
58.1 25.4259
58.12 14.9599
58.14 19.3849
58.16 19.9099
58.18 17.4108
58.2 9.14278
58.22 3.06272
58.24 14.7107
58.26 5.99658
58.28 8.06949
58.3 4.3934
58.32 7.65929
58.34 3.16018
58.36 12.6291
58.38 6.88092
58.4 14.3958
58.42 13.0506
58.44 -6.88453
58.46 4.2043
58.48 1.57012
58.5 0.647927
58.52 4.29073
58.54 -3.39848
58.56 15.4113
58.58 7.68307
58.6 -6.01017
58.62 9.90459
58.64 6.59733
58.66 14.8961
58.68 0.62379
58.7 -11.9705
58.72 -0.15879
58.74 7.73391
58.76 11.2336
58.78 9.72327
58.8 -2.97606
58.82 -0.908405
58.84 1.62224
58.86 11.3159
58.88 15.2155
58.9 8.94813
58.92 8.55374
58.94 5.60534
58.96 18.1479
58.98 18.7345
59.0 20.8511
59.02 22.6517
59.04 12.8902
59.06 12.9848
59.08 19.3033
59.1 10.6918
59.12 13.4073
59.14 12.0648
59.16 6.90333
59.18 20.1458
59.2 18.1893
59.22 3.49376
59.24 15.1082
59.26 20.0127
59.28 9.57411
59.3 16.3965
59.32 7.92296
59.34 10.4744
59.36 11.0778
59.38 4.28316
59.4 3.39654
59.42 4.31092
59.44 6.93228
59.46 5.82763
59.48 10.748
59.5 4.93231
59.52 3.61064
59.54 -2.02004
59.56 0.737262
59.58 -0.737441
59.6 -3.84815
59.62 7.70212
59.64 3.63539
59.66 -7.52635
59.68 0.983902
59.7 -5.77386
59.72 -5.37963
59.74 -7.57541
59.76 5.0538
59.78 -4.55099
59.8 -3.9268
59.82 -1.12262
59.84 -6.43644
59.86 -12.5433
59.88 -5.39613
59.9 2.99802
59.92 -7.29285
59.94 4.49728
59.96 5.4024
59.98 15.4315
60.0 17.4146
60.02 7.10269
60.04 5.29077
60.06 20.5188
60.08 23.8269
60.1 31.7079
60.12 33.836
60.14 38.536
60.16 42.384
60.18 42.8671
60.2 37.9951
60.22 40.983
60.24 38.435
60.26 39.644
60.28 40.974
60.3 40.1769
60.32 47.0259
60.34 48.3788
60.36 49.4897
60.38 61.0926
60.4 47.7916
60.42 41.8105
60.44 39.8603
60.46 39.9912
60.48 38.0341
60.5 39.2869
60.52 33.4978
60.54 32.6276
60.56 26.3845
60.58 29.2233
60.6 26.5511
60.62 20.5419
60.64 31.6367
60.66 27.7035
60.68 24.5653
60.7 14.681
60.72 26.4108
60.74 19.4225
60.76 8.40626
60.78 14.792
60.8 25.1437
60.82 31.7944
60.84 35.7481
60.86 37.6568
60.88 32.9365
60.9 42.5532
60.92 34.9608
60.94 42.9675
60.96 49.5951
60.98 62.8847
61.0 79.0344
61.02 82.848
61.04 97.7196
61.06 114.444
61.08 135.291
61.1 148.956
61.12 169.669
61.14 200.111
61.16 237.863
61.18 257.147
61.2 280.131
61.22 311.234
61.24 346.977
61.26 377.021
61.28 398.005
61.3 414.458
61.32 434.546
61.34 480.304
61.36 485.499
61.38 499.49
61.4 517.104
61.42 530.723
61.44 538.447
61.46 530.901
61.48 528.948
61.5 524.967
61.52 517.869
61.54 502.842
61.56 492.474
61.58 454.677
61.6 423.494
61.62 394.601
61.64 362.928
61.66 335.212
61.68 313.937
61.7 279.909
61.72 258.245
61.74 226.293
61.76 202.354
61.78 181.86
61.8 156.999
61.82 132.259
61.84 100.408
61.86 87.1481
61.88 73.2773
61.9 63.0545
61.92 50.0207
61.94 43.0809
61.96 37.9191
61.98 22.0482
62.0 16.8204