File: xrd/vals.txt
2theta back_cor
35.0 178.972
35.02 204.561
35.04 185.066
35.06 210.537
35.08 204.594
35.1 213.158
35.12 235.808
35.14 290.053
35.16 303.641
35.18 279.627
35.2 285.943
35.22 269.705
35.24 281.433
35.26 280.981
35.28 296.737
35.3 290.769
35.32 278.517
35.34 259.162
35.36 263.315
35.38 293.065
35.4 296.424
35.42 309.997
35.44 260.343
35.46 251.822
35.48 252.165
35.5 192.429
35.52 202.537
35.54 187.829
35.56 186.568
35.58 164.347
35.6 190.068
35.62 173.889
35.64 144.796
35.66 102.019
35.68 84.1269
35.7 109.791
35.72 93.8074
35.74 71.8202
35.76 41.068
35.78 64.0417
35.8 70.7574
35.82 70.6232
35.84 41.3779
35.86 56.7227
35.88 51.8874
35.9 48.7171
35.92 36.9618
35.94 66.5215
35.96 66.2702
35.98 61.513
36.0 43.2977
36.02 25.9154
36.04 56.429
36.06 40.6247
36.08 39.0944
36.1 23.9291
36.12 38.4488
36.14 38.2654
36.16 19.1371
36.18 29.8838
36.2 35.7964
36.22 49.1051
36.24 32.6917
36.26 9.06238
36.28 39.286
36.3 47.1877
36.32 59.9373
36.34 46.2449
36.36 70.5305
36.38 77.3582
36.4 61.4688
36.42 40.3934
36.44 21.569
36.46 48.0346
36.48 46.1342
36.5 25.9118
36.52 47.9944
36.54 52.431
36.56 25.0706
36.58 42.3991
36.6 31.2047
36.62 17.2343
36.64 28.0558
36.66 20.0394
36.68 46.803
36.7 68.3525
36.72 78.0941
36.74 42.3766
36.76 48.1561
36.78 32.8327
36.8 43.4112
36.82 35.7857
36.84 49.1452
36.86 44.5378
36.88 39.1163
36.9 45.6818
36.92 66.9803
36.94 68.1358
36.96 62.1153
36.98 70.5298
37.0 42.9253
37.02 45.4277
37.04 77.2032
37.06 53.3677
37.08 54.4492
37.1 34.7496
37.12 14.7021
37.14 31.8356
37.16 41.015
37.18 40.1865
37.2 35.0149
37.22 29.2743
37.24 0.953775
37.26 11.2382
37.28 15.7206
37.3 26.4661
37.32 10.6255
37.34 13.6639
37.36 23.9313
37.38 25.6447
37.4 9.37911
37.42 -16.9365
37.44 -10.2661
37.46 18.4033
37.48 5.50767
37.5 26.369
37.52 2.06142
37.54 -16.8012
37.56 -3.99484
37.58 13.5315
37.6 -4.91312
37.62 10.0072
37.64 18.9926
37.66 13.2569
37.68 0.932273
37.7 3.08561
37.72 5.48294
37.74 4.29227
37.76 31.8956
37.78 26.5289
37.8 10.9482
37.82 -17.9295
37.84 -39.4212
37.86 -28.4998
37.88 -12.8496
37.9 -17.2053
37.92 5.87803
37.94 -13.5857
37.96 -18.5984
37.98 -6.48712
38.0 -5.45685
38.02 16.6724
38.04 4.25168
38.06 6.99694
38.08 -12.2778
38.1 18.3814
38.12 31.1307
38.14 11.1409
38.16 -8.24182
38.18 0.505409
38.2 9.56764
38.22 16.9429
38.24 10.2221
38.26 14.1023
38.28 30.1245
38.3 18.4557
38.32 11.9849
38.34 15.8921
38.36 25.5123
38.38 27.8315
38.4 27.5597
38.42 17.0759
38.44 -1.06594
38.46 6.62223
38.48 29.8584
38.5 -5.25143
38.52 1.03173
38.54 20.2779
38.56 25.59
38.58 27.6662
38.6 6.52733
38.62 11.2625
38.64 -7.37539
38.66 -9.58526
38.68 -20.4461
38.7 3.15099
38.72 3.9031
38.74 12.3932
38.76 -11.1957
38.78 0.638433
38.8 2.64953
38.82 -10.0714
38.84 -11.0543
38.86 -31.7082
38.88 -15.6361
38.9 -1.62403
38.92 -6.73495
38.94 -5.56488
38.96 16.3132
38.98 15.5782
39.0 -8.45369
39.02 -4.34664
39.04 13.4944
39.06 14.3415
39.08 24.0525
39.1 33.5135
39.12 32.0816
39.14 7.69859
39.16 40.1226
39.18 40.6016
39.2 31.7737
39.22 32.9317
39.24 51.5407
39.26 73.9107
39.28 66.9087
39.3 67.8567
39.32 75.7407
39.34 76.8936
39.36 63.0056
39.38 82.0316
39.4 98.8756
39.42 79.3565
39.44 84.9805
39.46 95.8615
39.48 91.1064
39.5 79.5244
39.52 88.0433
39.54 105.457
39.56 122.918
39.58 89.3051
39.6 72.1881
39.62 75.277
39.64 68.0889
39.66 78.3048
39.68 67.7757
39.7 78.6876
39.72 77.1915
39.74 60.1124
39.76 57.4523
39.78 27.0602
39.8 16.6421
39.82 29.989
39.84 28.3419
39.86 23.0347
39.88 17.3556
39.9 23.5285
39.92 26.5123
39.94 4.6982
39.96 19.778
39.98 9.7409
40.0 14.5727
40.02 -12.9394
40.04 -1.59258
40.06 6.49225
40.08 7.84907
40.1 3.23289
40.12 12.0617
40.14 12.4555
40.16 0.513335
40.18 -2.24086
40.2 3.38894
40.22 -0.228263
40.24 21.3705
40.26 22.9003
40.28 -5.7669
40.3 0.192879
40.32 8.04665
40.34 0.787425
40.36 4.29219
40.38 9.81695
40.4 6.37371
40.42 3.41946
40.44 23.1722
40.46 33.785
40.48 57.7137
40.5 66.7854
40.52 59.4052
40.54 64.6669
40.56 103.966
40.58 119.938
40.6 135.848
40.62 188.197
40.64 218.325
40.66 251.967
40.68 265.071
40.7 313.981
40.72 383.445
40.74 412.055
40.76 433.701
40.78 506.827
40.8 535.676
40.82 613.576
40.84 631.298
40.86 692.195
40.88 697.484
40.9 741.334
40.92 774.695
40.94 787.489
40.96 816.51
40.98 839.093
41.0 841.344
41.02 854.075
41.04 860.596
41.06 819.269
41.08 828.617
41.1 775.343
41.12 739.437
41.14 694.681
41.16 651.437
41.18 626.109
41.2 587.507
41.22 490.785
41.24 452.726
41.26 400.046
41.28 375.019
41.3 356.364
41.32 281.591
41.34 242.857
41.36 213.67
41.38 164.81
41.4 151.877
41.42 112.436
41.44 82.9492
41.46 72.3607
41.48 58.0733
41.5 54.2478
41.52 22.0143
41.54 -0.94519
41.56 -8.22668
41.58 -18.5012
41.6 -20.5437
41.62 -44.5672
41.64 -41.8307
41.66 -29.6352
41.68 -37.9567
41.7 -24.9622
41.72 -41.6028
41.74 -33.1693
41.76 -35.9798
41.78 -32.5594
41.8 -25.0659
41.82 -23.8725
41.84 -37.149
41.86 -27.0916
41.88 -13.1381
41.9 -13.9347
41.92 -15.9813
41.94 -7.60483
41.96 9.8766
41.98 14.652
42.0 25.3734
42.02 54.6078
42.04 37.7412
42.06 42.9536
42.08 54.364
42.1 53.5534
42.12 50.8698
42.14 71.2722
42.16 62.1916
42.18 96.759
42.2 102.013
42.22 85.6587
42.24 80.4121
42.26 88.5024
42.28 96.7718
42.3 78.5571
42.32 83.6565
42.34 84.2398
42.36 65.3922
42.38 61.5645
42.4 52.0968
42.42 59.0691
42.44 45.6765
42.46 26.4138
42.48 43.3661
42.5 36.5174
42.52 27.2387
42.54 26.508
42.56 26.6463
42.58 20.1026
42.6 -2.94913
42.62 4.02615
42.64 10.0904
42.66 11.9767
42.68 -15.968
42.7 10.7832
42.72 7.8695
42.74 9.86775
42.76 1.461
42.78 16.3082
42.8 6.55849
42.82 8.47673
42.84 -5.87603
42.86 20.9522
42.88 7.79042
42.9 40.5846
42.92 6.47386
42.94 -8.07493
42.96 11.8473
42.98 0.534486
43.0 2.82369
43.02 13.2429
43.04 14.2661
43.06 18.4913
43.08 11.4854
43.1 8.01662
43.12 23.3228
43.14 26.034
43.16 48.7041
43.18 41.6663
43.2 40.0994
43.22 38.9166
43.24 33.3438
43.26 30.5119
43.28 63.158
43.3 56.0782
43.32 49.0433
43.34 47.8574
43.36 67.3596
43.38 75.5237
43.4 88.4198
43.42 94.6109
43.44 120.56
43.46 157.937
43.48 150.219
43.5 195.298
43.52 231.833
43.54 249.862
43.56 283.445
43.58 357.347
43.6 444.939
43.62 495.921
43.64 563.453
43.66 637.933
43.68 703.294
43.7 779.855
43.72 869.515
43.74 921.448
43.76 953.595
43.78 1063.98
43.8 1100.54
43.82 1139.95
43.84 1188.72
43.86 1243.37
43.88 1262.19
43.9 1294.75
43.92 1276.39
43.94 1281.36
43.96 1280.95
43.98 1266.43
44.0 1213.52
44.02 1150.96
44.04 1113.04
44.06 1045.43
44.08 994.434
44.1 919.825
44.12 859.044
44.14 781.56
44.16 697.202
44.18 626.661
44.2 553.259
44.22 462.703
44.24 418.493
44.26 353.195
44.28 302.404
44.3 243.734
44.32 215.616
44.34 186.76
44.36 153.329
44.38 120.54
44.4 124.51
44.42 108.875
44.44 82.2728
44.46 66.1477
44.48 48.1896
44.5 47.8775
44.52 51.8223
44.54 48.6022
44.56 47.6971
44.58 41.6889
44.6 47.3888
44.62 23.4936
44.64 28.4855
44.66 19.7653
44.68 40.2872
44.7 37.9
44.72 49.9168
44.74 51.1227
44.76 43.2275
44.78 44.4093
44.8 40.4301
44.82 51.3249
44.84 44.0047
44.86 38.0545
44.88 33.1253
44.9 40.4051
44.92 21.8569
44.94 25.4637
44.96 40.3465
44.98 43.5722
45.0 19.21
45.02 40.4428
45.04 39.4765
45.06 41.0943
45.08 30.4241
45.1 40.1548
45.12 51.9306
45.14 50.8443
45.16 30.86
45.18 40.6148
45.2 55.4605
45.22 55.7412
45.24 40.3979
45.26 46.9027
45.28 43.0304
45.3 51.4721
45.32 57.3128
45.34 74.9455
45.36 66.1542
45.38 55.9669
45.4 73.7275
45.42 73.6132
45.44 60.3229
45.46 76.4546
45.48 84.3432
45.5 87.5469
45.52 85.9176
45.54 85.7402
45.56 107.978
45.58 117.579
45.6 127.727
45.62 138.59
45.64 145.025
45.66 162.175
45.68 171.456
45.7 158.845
45.72 159.06
45.74 174.194
45.76 207.695
45.78 196.36
45.8 183.356
45.82 212.229
45.84 209.542
45.86 223.443
45.88 221.01
45.9 228.763
45.92 236.231
45.94 238.093
45.96 250.171
45.98 234.823
46.0 230.377
46.02 228.928
46.04 231.613
46.06 238.878
46.08 242.035
46.1 271.289
46.12 300.95
46.14 313.692
46.16 345.635
46.18 369.864
46.2 398.083
46.22 453.288
46.24 516.211
46.26 587.382
46.28 655.101
46.3 782.176
46.32 880.125
46.34 1021.12
46.36 1185
46.38 1345.47
46.4 1521.11
46.42 1710.49
46.44 1917.21
46.46 2173.84
46.48 2414.05
46.5 2630.53
46.52 2883.74
46.54 3117.22
46.56 3348.28
46.58 3544.27
46.6 3694.14
46.62 3907.64
46.64 4075.55
46.66 4121.4
46.68 4238.93
46.7 4279.84
46.72 4195.27
46.74 4204.19
46.76 4148.47
46.78 4003.07
46.8 3834.11
46.82 3673.78
46.84 3491.08
46.86 3244.7
46.88 3063.46
46.9 2812.52
46.92 2578.97
46.94 2333.33
46.96 2090.52
46.98 1889.19
47.0 1702.29
47.02 1500.73
47.04 1314.26
47.06 1138.1
47.08 982.698
47.1 865.969
47.12 752.101
47.14 637.007
47.16 566.631
47.18 478.022
47.2 401.37
47.22 323.954
47.24 329.556
47.26 295.698
47.28 256.389
47.3 245.496
47.32 235.992
47.34 209.992
47.36 212.425
47.38 193.586
47.4 162.623
47.42 153.276
47.44 140.825
47.46 156.211
47.48 146.325
47.5 136.472
47.52 129.85
47.54 140.089
47.56 123.146
47.58 102.552
47.6 120.895
47.62 108.518
47.64 106.871
47.66 103.387
47.68 96.3525
47.7 98.0717
47.72 82.9929
47.74 67.8891
47.76 73.7173
47.78 76.2734
47.8 67.6066
47.82 72.7028
47.84 64.4859
47.86 57.6451
47.88 64.0753
47.9 68.9494
47.92 68.6735
47.94 56.8617
47.96 58.7748
47.98 51.837
48.0 45.6501
48.02 67.7192
48.04 57.8223
48.06 40.6924
48.08 53.0175
48.1 45.1407
48.12 46.7318
48.14 52.2059
48.16 53.9839
48.18 56.233
48.2 44.6061
48.22 58.5232
48.24 57.3393
48.26 41.9573
48.28 44.6874
48.3 34.6475
48.32 42.2745
48.34 47.9836
48.36 41.2066
48.38 55.7867
48.4 54.4827
48.42 51.4018
48.44 48.9008
48.46 48.4108
48.48 50.8009
48.5 45.5359
48.52 47.8929
48.54 65.5359
48.56 48.2199
48.58 37.0299
48.6 27.5229
48.62 35.0179
48.64 32.7139
48.66 53.3969
48.68 37.3979
48.7 32.6478
48.72 40.3428
48.74 38.6788
48.76 30.7147
48.78 40.6867
48.8 30.6497
48.82 39.5326
48.84 46.4426
48.86 42.6595
48.88 34.2924
48.9 23.4264
48.92 29.0413
48.94 33.4142
48.96 42.9772
48.98 53.4481
49.0 48.983
49.02 46.3259
49.04 37.9938
49.06 46.8967
49.08 42.4636
49.1 37.7825
49.12 57.9454
49.14 51.7563
49.16 47.1361
49.18 45.337
49.2 44.1859
49.22 41.4357
49.24 50.3976
49.26 39.2135
49.28 41.3213
49.3 41.6152
49.32 34.699
49.34 41.3078
49.36 46.7557
49.38 36.2835
49.4 41.6773
49.42 23.0902
49.44 48.542
49.46 46.5188
49.48 29.1636
49.5 30.4544
49.52 44.3972
49.54 45.546
49.56 47.9368
49.58 44.7256
49.6 41.6084
49.62 42.3662
49.64 33.1949
49.66 33.6067
49.68 44.6115
49.7 46.4532
49.72 46.583
49.74 39.0057
49.76 55.5405
49.78 60.2782
49.8 54.099
49.82 48.2217
49.84 51.6154
49.86 52.5702
49.88 51.0349
49.9 63.5876
49.92 64.8653
49.94 72.916
49.96 80.8118
49.98 68.9465
50.0 67.6202
50.02 75.4729
50.04 90.7945
50.06 78.2492
50.08 76.3049
50.1 81.9546
50.12 86.1953
50.14 74.6279
50.16 87.9586
50.18 87.1312
50.2 72.1499
50.22 84.8096
50.24 83.1632
50.26 66.4658
50.28 52.3485
50.3 51.1901
50.32 45.9867
50.34 46.5714
50.36 38.727
50.38 51.5086
50.4 40.7092
50.42 43.8568
50.44 43.2954
50.46 38.795
50.48 44.4946
50.5 53.2812
50.52 42.5268
50.54 38.4844
50.56 38.262
50.58 37.0475
50.6 27.3611
50.62 39.6097
50.64 48.3762
50.66 45.2338
50.68 30.4424
50.7 35.7809
50.72 37.6924
50.74 39.513
50.76 33.0405
50.78 45.173
50.8 54.6016
50.82 37.7621
50.84 48.0156
50.86 40.6631
50.88 54.1196
50.9 53.8901
50.92 59.2446
50.94 45.8011
50.96 56.7836
50.98 49.8651
51.0 44.7316
51.02 60.1181
51.04 43.0696
51.06 33.724
51.08 41.1345
51.1 42.152
51.12 37.4914
51.14 30.1439
51.16 35.1253
51.18 43.7288
51.2 29.5252
51.22 27.8126
51.24 29.0541
51.26 27.2175
51.28 28.7549
51.3 29.4474
51.32 40.1518
51.34 44.5172
51.36 33.4246
51.38 42.99
51.4 46.5844
51.42 52.2318
51.44 44.6242
51.46 39.7576
51.48 46.5199
51.5 47.1283
51.52 56.4017
51.54 61.8651
51.56 71.5014
51.58 88.7638
51.6 74.7891
51.62 80.1975
51.64 88.3078
51.66 96.2892
51.68 79.8255
51.7 95.2228
51.72 91.3282
51.74 101.007
51.76 101.712
51.78 78.6311
51.8 101.863
51.82 97.4388
51.84 93.5661
51.86 87.9454
51.88 82.3547
51.9 68.9929
51.92 70.6132
51.94 55.7015
51.96 58.4548
51.98 53.1671
52.0 50.3633
52.02 38.1316
52.04 48.3649
52.06 27.3241
52.08 23.8734
52.1 23.3926
52.12 23.7339
52.14 20.2421
52.16 23.5143
52.18 28.3986
52.2 27.9258
52.22 32.375
52.24 28.1822
52.26 14.5174
52.28 18.2197
52.3 14.5969
52.32 4.70006
52.34 20.0273
52.36 23.7574
52.38 21.0166
52.4 36.3308
52.42 17.326
52.44 9.91317
52.46 9.27534
52.48 18.2855
52.5 35.0977
52.52 21.9488
52.54 10.992
52.56 18.0571
52.58 23.7533
52.6 15.9424
52.62 25.4666
52.64 28.6717
52.66 15.1608
52.68 4.72794
52.7 17.2121
52.72 23.3212
52.74 35.5973
52.76 30.2464
52.78 18.3635
52.8 7.25759
52.82 -3.09932
52.84 2.93677
52.86 3.16086
52.88 8.60694
52.9 -5.57299
52.92 0.0210852
52.94 -6.25185
52.96 -1.54278
52.98 -10.4207
53.0 11.0403
53.02 12.1104
53.04 9.92943
53.06 6.80947
53.08 2.35251
53.1 6.95854
53.12 3.69957
53.14 11.2096
53.16 15.7636
53.18 11.7886
53.2 4.91064
53.22 6.36265
53.24 2.34665
53.26 4.50765
53.28 4.81065
53.3 2.28864
53.32 -1.62638
53.34 5.19061
53.36 9.82558
53.38 -2.68544
53.4 -7.49647
53.42 -1.11051
53.44 -0.277548
53.46 -9.90359
53.48 -6.51964
53.5 -13.4017
53.52 -2.08675
53.54 1.77819
53.56 1.16712
53.58 -2.23694
53.6 2.13298
53.62 2.9749
53.64 12.0228
53.66 -3.52027
53.68 -4.22736
53.7 -12.9985
53.72 -9.94455
53.74 -2.93466
53.76 -8.97276
53.78 -9.12888
53.8 -7.42099
53.82 -2.17011
53.84 4.31276
53.86 9.73763
53.88 -2.5085
53.9 5.91436
53.92 2.65522
53.94 -5.10993
53.96 1.69192
53.98 12.2138
54.0 2.0406
54.02 3.23444
54.04 6.12327
54.06 7.8871
54.08 16.4389
54.1 12.1857
54.12 6.47356
54.14 17.2984
54.16 30.5942
54.18 37.454
54.2 21.6808
54.22 18.9486
54.24 25.2384
54.26 31.2851
54.28 38.1999
54.3 38.9977
54.32 35.3185
54.34 35.6732
54.36 22.121
54.38 25.4798
54.4 31.8895
54.42 34.1363
54.44 35.607
54.46 36.3207
54.48 27.2305
54.5 15.7092
54.52 23.4769
54.54 33.1207
54.56 39.2724
54.58 25.3741
54.6 33.5928
54.62 23.7535
54.64 25.8582
54.66 30.7809
54.68 24.3526
54.7 23.1433
54.72 32.913
54.74 19.0267
54.76 29.8304
54.78 25.51
54.8 32.3867
54.82 40.7814
54.84 48.453
54.86 49.9857
54.88 60.5153
54.9 54.093
54.92 56.2356
54.94 54.1073
54.96 57.3249
54.98 66.4525
55.0 73.1812
55.02 63.1928
55.04 58.0424
55.06 72.133
55.08 62.9386
55.1 73.5132
55.12 85.9508
55.14 89.7554
55.16 81.135
55.18 83.4956
55.2 84.1622
55.22 78.9948
55.24 85.2453
55.26 79.1209
55.28 81.2355
55.3 81.707
55.32 86.6536
55.34 87.4301
55.36 76.7367
55.38 65.2462
55.4 71.4798
55.42 60.4713
55.44 61.8448
55.46 66.2364
55.48 64.2369
55.5 72.8424
55.52 58.3699
55.54 49.8344
55.56 55.7079
55.58 59.0714
55.6 65.9339
55.62 55.0944
55.64 55.0949
55.66 44.8734
55.68 41.5109
55.7 40.8114
55.72 41.3908
55.74 40.3183
55.76 34.9048
55.78 29.2132
55.8 24.4277
55.82 41.1921
55.84 48.3936
55.86 40.89
55.88 42.6944
55.9 53.0719
55.92 50.5213
55.94 60.0517
55.96 64.2031
55.98 54.9046
56.0 54.117
56.02 64.7484
56.04 77.7538
56.06 73.2232
56.08 77.2226
56.1 88.707
56.12 76.9324
56.14 86.1077
56.16 84.8161
56.18 84.5695
56.2 86.3678
56.22 93.5602
56.24 73.5976
56.26 74.1259
56.28 69.2663
56.3 69.3936
56.32 56.312
56.34 65.2443
56.36 58.2856
56.38 49.396
56.4 35.9323
56.42 41.5566
56.44 36.9819
56.46 48.5162
56.48 35.9146
56.5 33.5229
56.52 24.2212
56.54 21.8435
56.56 24.9747
56.58 27.619
56.6 26.6213
56.62 22.1036
56.64 18.4789
56.66 23.6251
56.68 6.2564
56.7 16.3617
56.72 8.95792
56.74 25.1732
56.76 23.3594
56.78 14.8367
56.8 15.6599
56.82 11.7901
56.84 21.7264
56.86 27.7046
56.88 27.6348
56.9 12.568
56.92 25.2023
56.94 25.8525
56.96 46.6527
56.98 38.6279
57.0 41.5391
57.02 49.3013
57.04 32.2984
57.06 42.7846
57.08 52.4538
57.1 59.185
57.12 63.8942
57.14 68.7433
57.16 72.2305
57.18 71.2946
57.2 70.8538
57.22 66.9029
57.24 61.9091
57.26 59.0522
57.28 51.3544
57.3 48.3955
57.32 49.7106
57.34 55.3558
57.36 46.2979
57.38 51.74
57.4 58.6251
57.42 39.5612
57.44 30.1683
57.46 35.0394
57.48 33.2385
57.5 21.3806
57.52 18.2297
57.54 18.2268
57.56 16.3888
57.58 7.43691
57.6 7.94598
57.62 5.53504
57.64 12.2341
57.66 1.64716
57.68 -3.03079
57.7 8.99125
57.72 4.8693
57.74 2.16433
57.76 1.83737
57.78 5.8404
57.8 5.97442
57.82 -7.71856
57.84 -7.37154
57.86 -1.83353
57.88 6.15948
57.9 3.59248
57.92 0.937483
57.94 -2.94752
57.96 -5.44453
57.98 1.64046
58.0 5.18244
58.02 3.84242
58.04 -2.55961
58.06 3.18736
58.08 3.85932
58.1 12.2273
58.12 1.77424
58.14 6.21219
58.16 6.75014
58.18 4.26409
58.2 -3.99097
58.22 -10.058
58.24 1.60289
58.26 -7.09818
58.28 -5.01226
58.3 -8.67534
58.32 -5.39643
58.34 -9.88252
58.36 -0.400614
58.38 -6.13571
58.4 1.39218
58.42 0.0600752
58.44 -19.862
58.46 -8.76015
58.48 -11.3813
58.5 -12.2904
58.52 -8.63453
58.54 -16.3107
58.56 2.5122
58.58 -5.20294
58.6 -18.8831
58.62 -2.95524
58.64 -6.24939
58.66 2.06245
58.68 -12.1967
58.7 -24.7779
58.72 -12.9531
58.74 -5.04723
58.76 -1.53441
58.78 -3.0316
58.8 -15.7178
58.82 -13.637
58.84 -11.0932
58.86 -1.38638
58.88 2.52641
58.9 -3.7278
58.92 -4.10901
58.94 -7.04423
58.96 5.51154
58.98 6.11131
59.0 8.24108
59.02 10.0548
59.04 0.306605
59.06 0.41436
59.08 6.74611
59.1 -1.85214
59.12 0.876599
59.14 -0.452663
59.16 -5.60093
59.18 7.6548
59.2 5.71152
59.22 -8.97076
59.24 2.65696
59.26 7.57467
59.28 -2.85062
59.3 3.98508
59.32 -4.47522
59.34 -1.91052
59.36 -1.29383
59.38 -8.07514
59.4 -8.94846
59.42 -8.02079
59.44 -5.38611
59.46 -6.47744
59.48 -1.54378
59.5 -7.34612
59.52 -8.65446
59.54 -14.2718
59.56 -11.5012
59.58 -12.9625
59.6 -16.0599
59.62 -4.49624
59.64 -8.54961
59.66 -19.698
59.68 -11.1744
59.7 -17.9187
59.72 -17.5111
59.74 -19.6935
59.76 -7.05092
59.78 -16.6423
59.8 -16.0047
59.82 -13.1871
59.84 -18.4875
59.86 -24.581
59.88 -17.4204
59.9 -9.01281
59.92 -19.2902
59.94 -7.48667
59.96 -6.56811
59.98 3.47445
60.0 5.471
60.02 -4.82745
60.04 -6.62591
60.06 8.61564
60.08 11.9372
60.1 19.8317
60.12 21.9732
60.14 26.6868
60.16 30.5483
60.18 31.0448
60.2 26.1863
60.22 29.1878
60.24 26.6533
60.26 27.8758
60.28 29.2193
60.3 28.4358
60.32 35.2983
60.34 36.6648
60.36 37.7892
60.38 49.4057
60.4 36.1182
60.42 30.1506
60.44 28.2141
60.46 28.3585
60.48 26.415
60.5 27.6814
60.52 21.9059
60.54 21.0493
60.56 14.8198
60.58 17.6722
60.6 15.0136
60.62 9.01802
60.64 20.1264
60.66 16.2069
60.68 13.0823
60.7 3.21166
60.72 14.9551
60.74 7.98046
60.76 -3.02215
60.78 3.37723
60.8 13.7426
60.82 20.407
60.84 24.3744
60.86 26.2967
60.88 21.5901
60.9 31.2205
60.92 23.6418
60.94 31.6622
60.96 38.3035
60.98 51.6069
61.0 67.7702
61.02 71.5975
61.04 86.4829
61.06 103.221
61.08 124.082
61.1 137.761
61.12 158.487
61.14 188.943
61.16 226.709
61.18 246.006
61.2 269.004
61.22 300.121
61.24 335.878
61.26 365.935
61.28 386.933
61.3 403.4
61.32 423.502
61.34 469.274
61.36 474.483
61.38 488.488
61.4 506.115
61.42 519.748
61.44 527.486
61.46 519.954
61.48 518.015
61.5 514.047
61.52 506.963
61.54 491.95
61.56 481.596
61.58 443.813
61.6 412.643
61.62 383.765
61.64 352.106
61.66 324.403
61.68 303.142
61.7 269.128
61.72 247.479
61.74 215.54
61.76 191.615
61.78 171.135
61.8 146.288
61.82 121.561
61.84 89.7245
61.86 76.4787
61.88 62.6219
61.9 52.413
61.92 39.3931
61.94 32.4673
61.96 27.3194
61.98 11.4625
62.0 6.24866