File: kikuchipy/spectru_precip.msa
#FORMAT      : EMSA/MAS Spectral Data File
#VERSION     : 1.0
#DATE        :
#TIME        :
#OWNER       :
#NPOINTS     : 1000
#NCOLUMNS    : 1
#DATATYPE    : Y
#SIGNALTYPE  : EDS_SEM
#XPERCHAN    : 0.01
#OFFSET      : 0.0
#XLABEL      : Energy
#XUNITS      : keV
#COMMENT     : File created by HyperSpy version 1.7.5
#TITLE       : EDS Spectrum Image
#BEAMKV      : 10
#XTILTSTGE   : 70.0
#ELEVANGLE   : 35.0
#AZIMANGLE   : 61.0
#LIVETIME    : 2621.44
#FWHMMNKA    : 128.327
#SPECTRUM    : Spectral Data Starts Here
0.000000,
0.000000,
0.000000,
0.000000,
4.000000,
7.000000,
17,
35,
100,
131,
183,
284,
377,
491,
647,
759,
961,
1149,
1289,
1548,
1735,
1963,
2112,
2343,
2419,
2537,
2581,
2637,
2512,
2283,
2099,
1978,
1840,
1804,
1705,
1639,
1621,
1589,
1537,
1624,
1619,
1648,
1709,
1766,
1892,
1846,
1990,
2055,
2102,
2313,
2520,
2750,
2860,
2791,
2675,
2539,
2470,
2305,
2342,
2283,
2391,
2644,
2612,
2652,
2740,
2707,
2751,
2631,
2721,
2721,
2716,
2769,
2839,
2641,
2725,
2580,
2635,
2665,
2704,
2774,
2816,
2790,
2731,
2877,
2810,
2902,
2897,
2949,
2985,
2862,
2921,
3063,
3222,
3208,
3156,
3293,
3393,
3393,
3446,
3610,
3770,
3950,
3864,
4058,
4174,
4315,
4549,
4853,
4873,
4896,
5155,
5431,
5536,
5852,
6042,
6546,
7662,
10328,
15964,
27237,
46800,
76495,
114536,
157234,
194072,
217059,
216525,
194059,
155109,
112450,
74948,
44980,
25662,
14087,
7722,
4782,
3311,
2615,
2253,
2381,
2814,
3883,
5875,
9677,
14851,
21474,
28523,
35102,
39218,
39689,
36482,
30789,
23542,
17140,
11737,
7650,
5039,
3664,
2651,
2097,
1967,
1714,
1467,
1383,
1372,
1397,
1372,
1368,
1455,
1472,
1697,
1897,
1944,
1980,
2005,
2014,
1970,
1871,
1749,
1451,
1527,
1292,
1255,
1279,
1231,
1207,
1048,
1051,
1088,
1012,
1064,
973,
1115,
1127,
1130,
1113,
1048,
1096,
1105,
1040,
1064,
1037,
1034,
1002,
1011,
975,
936,
939,
926,
996,
958,
936,
959,
904,
994,
896,
958,
888,
956,
907,
950,
954,
924,
925,
926,
954,
889,
886,
934,
870,
900,
955,
888,
928,
873,
847,
919,
929,
878,
876,
911,
944,
909,
902,
1013,
958,
1087,
1088,
1174,
1172,
1116,
1217,
1151,
1178,
1093,
1078,
934,
885,
919,
852,
828,
821,
816,
784,
826,
800,
854,
809,
835,
800,
876,
836,
849,
888,
832,
840,
905,
898,
794,
789,
816,
768,
731,
756,
784,
802,
736,
731,
729,
745,
784,
741,
694,
717,
736,
802,
732,
696,
737,
709,
774,
728,
683,
659,
719,
664,
691,
682,
633,
697,
655,
684,
665,
671,
703,
702,
697,
708,
654,
672,
729,
691,
681,
686,
656,
623,
679,
637,
613,
673,
658,
723,
625,
683,
659,
681,
605,
712,
657,
589,
653,
624,
663,
602,
642,
663,
692,
649,
647,
673,
688,
647,
648,
663,
727,
723,
720,
875,
985,
1251,
1660,
2264,
3048,
4025,
5387,
6519,
7719,
8982,
10105,
10249,
10526,
9953,
8994,
7761,
6287,
5039,
3852,
2688,
2087,
1520,
1133,
884,
741,
636,
610,
520,
574,
549,
540,
517,
575,
641,
675,
689,
914,
948,
1071,
1227,
1302,
1425,
1591,
1657,
1655,
1599,
1557,
1357,
1216,
1040,
964,
799,
644,
538,
554,
517,
462,
460,
437,
405,
452,
450,
426,
432,
395,
457,
452,
401,
380,
420,
408,
383,
410,
430,
439,
374,
417,
429,
404,
389,
433,
401,
411,
382,
450,
401,
386,
392,
379,
369,
400,
416,
382,
451,
382,
366,
382,
361,
373,
353,
339,
378,
397,
355,
381,
386,
374,
407,
356,
348,
316,
340,
402,
363,
369,
367,
356,
375,
324,
371,
364,
348,
339,
331,
367,
328,
354,
361,
374,
386,
359,
349,
388,
377,
368,
393,
347,
383,
354,
338,
339,
351,
341,
358,
378,
322,
277,
313,
305,
378,
322,
304,
332,
294,
303,
289,
290,
329,
299,
343,
298,
287,
325,
301,
281,
280,
357,
315,
317,
298,
293,
257,
319,
306,
283,
328,
294,
324,
318,
251,
291,
318,
279,
308,
288,
286,
270,
272,
243,
250,
295,
273,
246,
280,
256,
291,
261,
221,
276,
223,
277,
260,
267,
276,
235,
246,
225,
279,
280,
253,
259,
239,
253,
269,
244,
265,
230,
266,
276,
239,
220,
268,
270,
267,
242,
263,
306,
305,
335,
324,
299,
318,
306,
381,
332,
305,
258,
307,
246,
285,
247,
218,
231,
227,
247,
241,
224,
215,
236,
223,
216,
228,
233,
215,
220,
222,
223,
213,
209,
208,
237,
235,
196,
210,
225,
198,
214,
192,
187,
210,
220,
225,
236,
218,
195,
214,
234,
223,
227,
206,
230,
212,
221,
240,
212,
218,
225,
224,
207,
201,
208,
185,
217,
211,
176,
213,
166,
184,
178,
186,
165,
209,
186,
146,
179,
197,
158,
165,
166,
170,
193,
160,
144,
166,
164,
151,
162,
159,
144,
140,
153,
151,
165,
168,
143,
154,
155,
144,
178,
142,
154,
139,
165,
174,
159,
131,
147,
165,
153,
157,
171,
151,
164,
133,
135,
144,
155,
171,
156,
148,
148,
162,
130,
127,
138,
146,
134,
160,
151,
121,
160,
129,
119,
146,
144,
114,
137,
119,
130,
124,
134,
151,
134,
96,
117,
157,
133,
126,
117,
110,
123,
144,
110,
124,
123,
132,
130,
131,
122,
109,
127,
133,
125,
119,
92,
109,
122,
121,
115,
109,
103,
91,
94,
122,
120,
133,
95,
93,
123,
97,
100,
121,
119,
99,
98,
108,
89,
98,
100,
92,
97,
84,
90,
117,
104,
108,
78,
106,
103,
77,
83,
95,
95,
96,
88,
89,
96,
99,
80,
110,
96,
106,
69,
111,
73,
89,
83,
91,
99,
69,
59,
88,
72,
105,
95,
96,
75,
72,
69,
79,
93,
84,
77,
57,
89,
86,
77,
75,
79,
84,
62,
71,
74,
76,
60,
76,
71,
63,
60,
67,
56,
59,
65,
70,
74,
63,
53,
70,
71,
68,
76,
50,
57,
64,
78,
58,
56,
62,
71,
63,
80,
58,
44,
51,
56,
60,
68,
54,
56,
56,
53,
56,
44,
41,
43,
65,
57,
42,
52,
64,
51,
44,
47,
53,
42,
48,
52,
42,
40,
53,
48,
36,
48,
44,
47,
29,
49,
53,
35,
46,
34,
40,
29,
37,
45,
23,
36,
36,
54,
55,
36,
27,
37,
42,
25,
43,
37,
39,
36,
56,
36,
30,
35,
29,
18,
38,
23,
36,
32,
25,
39,
21,
21,
34,
26,
21,
38,
37,
27,
23,
21,
22,
21,
12,
25,
19,
19,
29,
21,
9.000000,
13,
13,
24,
12,
18,
22,
22,
15,
14,
19,
20,
13,
12,
19,
10,
13,
10,
13,
10,
9.000000,
6.000000,
16,
5.000000,
16,
13,
7.000000,
13,
4.000000,
15,
7.000000,
7.000000,
12,
18,
6.000000,
17,
5.000000,
4.000000,
7.000000,
7.000000,
4.000000,
5.000000,
1.000000,
5.000000,
3.000000,
8.000000,
4.000000,
4.000000,
3.000000,
1.000000,
1.000000,
2.000000,
3.000000,
#ENDOFDATA   : End Of Data and File